File: output/charge_discharge.csv
,|Q|[Ah](charge),Voltage[V](charge),Capacity[mAh/g](charge),|Q|[Ah](discharge),Voltage[V](discharge),Capacity[mAh/g](discharge)
0,6.207199e-08,3.34958,0.0180547,5.730693e-07,4.2888,0.166687
2,3.79118e-07,3.45034,0.110273,1.71921e-06,4.28422,0.500061
4,1.40762e-06,3.5225,0.40943,2.86534e-06,4.28024,0.833432
6,2.55358e-06,3.53688,0.742752,4.01147e-06,4.27688,1.1668
8,3.69955e-06,3.54314,1.07608,5.15761e-06,4.27351,1.50018
10,4.84552e-06,3.54697,1.4094,6.30374e-06,4.27061,1.83355
12,5.99148e-06,3.54972,1.74272,7.44987e-06,4.2677,2.16692
14,7.13744e-06,3.55232,2.07604,8.596e-06,4.26495,2.50029
16,8.28341e-06,3.55461,2.40937,9.74213e-06,4.2622,2.83366
18,9.42937e-06,3.55614,2.74269,1.088826e-05,4.25975,3.16703
20,1.057533e-05,3.55767,3.07601,1.203438e-05,4.25761,3.5004
22,1.17213e-05,3.5592,3.40934,1.318051e-05,4.25501,3.83377
24,1.286726e-05,3.56057,3.74266,1.432664e-05,4.25241,4.16714
26,1.401322e-05,3.56195,4.07598,1.547277e-05,4.25043,4.50051
28,1.515918e-05,3.56317,4.4093,1.66189e-05,4.24844,4.83389
30,1.630514e-05,3.56409,4.74262,1.776503e-05,4.2463,5.16726
32,1.74511e-05,3.56531,5.07595,1.891116e-05,4.24446,5.50063
34,1.859706e-05,3.56623,5.40927,2.005729e-05,4.24248,5.834
36,1.974303e-05,3.567,5.74259,2.120342e-05,4.24049,6.16737
38,2.088899e-05,3.56822,6.07591,2.234955e-05,4.23896,6.50074
40,2.203495e-05,3.56898,6.40924,2.349568e-05,4.23697,6.83411
42,2.318091e-05,3.5699,6.74256,2.464181e-05,4.23514,7.16748
44,2.432687e-05,3.57066,7.07588,2.578794e-05,4.23361,7.50086
46,2.547283e-05,3.57143,7.4092,2.693407e-05,4.23223,7.83423
48,2.66188e-05,3.57235,7.74252,2.80802e-05,4.2304,8.1676
50,2.776476e-05,3.57326,8.07585,2.922633e-05,4.22902,8.50097
52,2.891073e-05,3.57388,8.40917,3.037246e-05,4.22765,8.83434
54,3.005669e-05,3.57464,8.74249,3.151859e-05,4.22612,9.16771
56,3.120266e-05,3.5754,9.07582,3.266472e-05,4.22505,9.50108
58,3.234862e-05,3.57632,9.40914,3.381085e-05,4.22398,9.83445
60,3.349458e-05,3.57709,9.74246,3.495698e-05,4.22245,10.1678
62,3.464054e-05,3.5777,10.0758,3.61031e-05,4.22107,10.5012
64,3.578651e-05,3.57846,10.4091,3.724923e-05,4.2197,10.8346
66,3.693247e-05,3.57923,10.7424,3.839536e-05,4.21847,11.1679
68,3.807843e-05,3.57984,11.0758,3.954149e-05,4.21725,11.5013
70,3.92244e-05,3.58045,11.4091,4.068762e-05,4.21648,11.8347
72,4.037036e-05,3.58106,11.7424,4.183376e-05,4.21511,12.1681
74,4.151632e-05,3.58183,12.0757,4.297989e-05,4.21434,12.5014
76,4.266229e-05,3.58274,12.409,4.412603e-05,4.21327,12.8348
78,4.380825e-05,3.5832,12.7424,4.527216e-05,4.2122,13.1682
80,4.495422e-05,3.58412,13.0757,4.641829e-05,4.21129,13.5015
82,4.610018e-05,3.58458,13.409,4.756443e-05,4.21052,13.8349
84,4.724614e-05,3.58504,13.7423,4.871055e-05,4.20945,14.1683
86,4.839211e-05,3.58565,14.0757,4.985668e-05,4.20869,14.5017
88,4.953807e-05,3.58657,14.409,5.10028e-05,4.20792,14.835
90,5.068403e-05,3.58718,14.7423,5.214893e-05,4.20701,15.1684
92,5.183e-05,3.58779,15.0756,5.329506e-05,4.20624,15.5018
94,5.297597e-05,3.58855,15.4089,5.444119e-05,4.20532,15.8351
96,5.412194e-05,3.58916,15.7423,5.558732e-05,4.20441,16.1685
98,5.52679e-05,3.58978,16.0756,5.673345e-05,4.20364,16.5019
100,5.641386e-05,3.59069,16.4089,5.787958e-05,4.20303,16.8352
102,5.755982e-05,3.59131,16.7422,5.902571e-05,4.20242,17.1686
104,5.870579e-05,3.59207,17.0756,6.017184e-05,4.20135,17.502
106,5.985175e-05,3.59268,17.4089,6.131797e-05,4.20058,17.8354
108,6.099771e-05,3.59329,17.7422,6.246411e-05,4.19997,18.1687
110,6.214367e-05,3.59406,18.0755,6.361024e-05,4.19936,18.5021
112,6.328964e-05,3.59452,18.4089,6.475638e-05,4.19875,18.8355
114,6.44356e-05,3.59543,18.7422,6.590251e-05,4.19783,19.1689
116,6.558157e-05,3.59604,19.0755,6.704864e-05,4.19722,19.5022
118,6.672753e-05,3.59666,19.4088,6.819477e-05,4.19676,19.8356
120,6.78735e-05,3.59727,19.7421,6.93409e-05,4.19615,20.169
122,6.901947e-05,3.59788,20.0755,7.048704e-05,4.19554,20.5023
124,7.016543e-05,3.59849,20.4088,7.163317e-05,4.19477,20.8357
126,7.131139e-05,3.59941,20.7421,7.277931e-05,4.19401,21.1691
128,7.245735e-05,3.60017,21.0754,7.392544e-05,4.19355,21.5025
130,7.360331e-05,3.60063,21.4088,7.507156e-05,4.19309,21.8358
132,7.474927e-05,3.60124,21.7421,7.621769e-05,4.19248,22.1692
134,7.589523e-05,3.60185,22.0754,7.736383e-05,4.19172,22.5026
136,7.704119e-05,3.60262,22.4087,7.850995e-05,4.19126,22.8359
138,7.818715e-05,3.60338,22.742,7.965608e-05,4.19065,23.1693
140,7.93331e-05,3.6043,23.0754,8.080222e-05,4.19003,23.5027
142,8.047906e-05,3.60461,23.4087,8.194835e-05,4.18927,23.8361
144,8.162502e-05,3.60537,23.742,8.309448e-05,4.18881,24.1694
146,8.277099e-05,3.60614,24.0753,8.424061e-05,4.18835,24.5028
148,8.391694e-05,3.60675,24.4087,8.538674e-05,4.18759,24.8362
150,8.50629e-05,3.60766,24.742,8.653286e-05,4.18713,25.1695
152,8.620886e-05,3.60828,25.0753,8.767899e-05,4.18637,25.5029
154,8.735482e-05,3.60904,25.4086,8.882512e-05,4.1856,25.8363
156,8.850078e-05,3.60996,25.7419,8.997125e-05,4.18514,26.1696
158,8.964674e-05,3.61072,26.0753,9.111739e-05,4.18468,26.503
160,9.07927e-05,3.61133,26.4086,9.226352e-05,4.18377,26.8364
162,9.193867e-05,3.61225,26.7419,9.340965e-05,4.183,27.1698
164,9.308463e-05,3.61271,27.0752,9.455578e-05,4.18239,27.5031
166,9.423059e-05,3.61363,27.4085,9.570191e-05,4.18178,27.8365
168,9.537655e-05,3.61424,27.7419,9.684804e-05,4.18117,28.1699
170,9.652251e-05,3.61516,28.0752,9.799417e-05,4.18056,28.5032
172,9.766846e-05,3.61607,28.4085,9.91403e-05,4.17964,28.8366
174,9.881442e-05,3.61684,28.7418,0.000100286,4.17918,29.17
176,9.996038e-05,3.61745,29.0752,0.000101433,4.17841,29.5034
178,0.000101106,3.61837,29.4085,0.000102579,4.17765,29.8367
180,0.0001022523,3.61883,29.7418,0.000103725,4.17673,30.1701
182,0.000103398,3.61974,30.0751,0.000104871,4.17612,30.5035
184,0.000104544,3.62081,30.4084,0.000106017,4.17536,30.8368
186,0.00010569,3.62143,30.7418,0.000107163,4.17444,31.1702
188,0.000106836,3.62234,31.0751,0.000108309,4.17367,31.5036
190,0.000107982,3.62311,31.4084,0.000109455,4.17291,31.837
192,0.000109128,3.62387,31.7417,0.000110602,4.17184,32.1703
194,0.000110274,3.62479,32.075,0.000111748,4.17092,32.5037
196,0.00011142,3.62571,32.4084,0.000112894,4.17016,32.8371
198,0.000112566,3.62632,32.7417,0.00011404,4.16924,33.1705
200,0.000113712,3.62754,33.075,0.000115186,4.16832,33.5038
202,0.000114858,3.62831,33.4083,0.000116332,4.16725,33.8372
204,0.000116004,3.62922,33.7416,0.0001174784,4.16603,34.1706
206,0.00011715,3.63014,34.075,0.000118625,4.16496,34.5039
208,0.000118296,3.63106,34.4083,0.000119771,4.16343,34.8373
210,0.000119442,3.63197,34.7416,0.000120917,4.16251,35.1707
212,0.000120588,3.63274,35.0749,0.000122063,4.16129,35.504
214,0.000121734,3.63366,35.4083,0.000123209,4.16007,35.8374
216,0.00012288,3.63473,35.7416,0.000124355,4.15884,36.1708
218,0.0001240255,3.63564,36.0749,0.000125501,4.15762,36.5042
220,0.000125171,3.63656,36.4082,0.000126647,4.15609,36.8375
222,0.000126317,3.63748,36.7415,0.000127794,4.15456,37.1709
224,0.000127463,3.6384,37.0749,0.00012894,4.15334,37.5043
226,0.000128609,3.63931,37.4082,0.000130086,4.15181,37.8376
228,0.0001297553,3.64038,37.7415,0.000131232,4.15028,38.171
230,0.000130901,3.641,38.0748,0.0001323781,4.14891,38.5044
232,0.000132047,3.64207,38.4082,0.000133524,4.14738,38.8378
234,0.000133193,3.64298,38.7415,0.00013467,4.1457,39.1711
236,0.000134339,3.6439,39.0748,0.000135816,4.14401,39.5045
238,0.000135485,3.64497,39.4081,0.000136963,4.14264,39.8379
240,0.000136631,3.64589,39.7414,0.000138109,4.14096,40.1712
242,0.000137777,3.64696,40.0748,0.000139255,4.13927,40.5046
244,0.000138923,3.64803,40.4081,0.000140401,4.13775,40.838
246,0.000140069,3.6491,40.7414,0.000141547,4.13576,41.1714
248,0.000141215,3.64956,41.0747,0.000142693,4.13408,41.5047
250,0.000142361,3.65093,41.408,0.000143839,4.13239,41.8381
252,0.0001435068,3.652,41.7414,0.000144986,4.13041,42.1715
254,0.000144653,3.65292,42.0747,0.000146132,4.12903,42.5048
256,0.000145799,3.65384,42.408,0.000147278,4.12689,42.8382
258,0.000146945,3.65476,42.7413,0.000148424,4.12505,43.1716
260,0.000148091,3.65583,43.0746,0.00014957,4.12337,43.505
262,0.0001492366,3.65674,43.408,0.000150716,4.12154,43.8383
264,0.000150383,3.65766,43.7413,0.000151862,4.1197,44.1717
266,0.000151529,3.65873,44.0746,0.000153008,4.11756,44.5051
268,0.000152674,3.65965,44.4079,0.000154155,4.11542,44.8384
270,0.00015382,3.66041,44.7413,0.000155301,4.11374,45.1718
272,0.000154966,3.66164,45.0746,0.000156447,4.11206,45.5052
274,0.000156112,3.6624,45.4079,0.000157593,4.10992,45.8385
276,0.000157258,3.66362,45.7412,0.000158739,4.10793,46.1719
278,0.000158404,3.66424,46.0746,0.000159885,4.10625,46.5053
280,0.00015955,3.66546,46.4079,0.000161031,4.10411,46.8387
282,0.000160696,3.66653,46.7412,0.000162177,4.10212,47.172
284,0.000161842,3.66745,47.0745,0.000163324,4.09998,47.5054
286,0.000162988,3.66806,47.4079,0.00016447,4.0983,47.8388
288,0.000164134,3.66928,47.7412,0.0001656158,4.09616,48.1721
290,0.00016528,3.67035,48.0745,0.000166762,4.09432,48.5055
292,0.000166426,3.67127,48.4078,0.000167908,4.09218,48.8389
294,0.000167572,3.67203,48.7411,0.000169054,4.08989,49.1722
296,0.000168718,3.6731,49.0745,0.0001702,4.08836,49.5056
298,0.000169864,3.67402,49.4078,0.000171346,4.08607,49.839
300,0.00017101,3.67478,49.7411,0.000172493,4.08423,50.1724
302,0.000172156,3.6757,50.0744,0.000173639,4.0824,50.5057
304,0.000173302,3.67677,50.4078,0.0001747848,4.08026,50.8391
306,0.000174448,3.67769,50.7411,0.000175931,4.07858,51.1725
308,0.000175594,3.67845,51.0744,0.000177077,4.07659,51.5058
310,0.00017674,3.67922,51.4077,0.000178223,4.0746,51.8392
312,0.000177886,3.68044,51.7411,0.0001793693,4.07277,52.1726
314,0.0001790317,3.68121,52.0744,0.000180515,4.07047,52.5059
316,0.000180178,3.68212,52.4077,0.000181662,4.06879,52.8393
318,0.000181324,3.68304,52.741,0.000182808,4.06696,53.1727
320,0.0001824696,3.68396,53.0743,0.0001839538,4.06512,53.5061
322,0.000183616,3.68503,53.4077,0.0001851,4.06329,53.8394
324,0.000184762,3.68595,53.741,0.000186246,4.0616,54.1728
326,0.000185907,3.68671,54.0743,0.000187392,4.05992,54.5062
328,0.000187053,3.68747,54.4076,0.0001885383,4.05809,54.8395
330,0.000188199,3.6887,54.741,0.000189684,4.05625,55.1729
332,0.000189345,3.68946,55.0743,0.000190831,4.05442,55.5063
334,0.000190491,3.69023,55.4076,0.000191977,4.05274,55.8396
336,0.000191637,3.69099,55.7409,0.0001931228,4.05105,56.173
338,0.000192783,3.69191,56.0742,0.000194269,4.04922,56.5064
340,0.000193929,3.69298,56.4076,0.000195415,4.04754,56.8397
342,0.0001950752,3.6939,56.7409,0.000196561,4.0457,57.1731
344,0.000196221,3.69481,57.0742,0.000197707,4.04417,57.5065
346,0.000197367,3.69543,57.4075,0.0001988534,4.04265,57.8398
348,0.0001985131,3.6965,57.7409,0.0002,4.04112,58.1732
350,0.000199659,3.69726,58.0742,0.000201146,4.03959,58.5066
352,0.000200805,3.69802,58.4075,0.000202292,4.03791,58.84
354,0.000201951,3.69879,58.7408,0.0002034379,4.03622,59.1733
356,0.000203097,3.70001,59.0742,0.000204584,4.03454,59.5067
358,0.000204243,3.70062,59.4075,0.00020573,4.03286,59.8401
360,0.0002053889,3.70154,59.7408,0.000206876,4.03148,60.1734
362,0.000206535,3.70231,60.0741,0.000208022,4.02996,60.5068
364,0.000207681,3.70307,60.4075,0.000209169,4.02843,60.8402
366,0.000208827,3.70414,60.7408,0.000210315,4.0269,61.1735
368,0.000209973,3.70475,61.0741,0.000211461,4.02552,61.5069
370,0.000211119,3.70567,61.4074,0.000212607,4.02399,61.8403
372,0.000212265,3.70659,61.7407,0.000213753,4.02262,62.1736
374,0.000213411,3.70735,62.0741,0.000214899,4.02109,62.507
376,0.000214557,3.70812,62.4074,0.000216045,4.01956,62.8404
378,0.000215703,3.70888,62.7407,0.000217191,4.01834,63.1738
380,0.000216849,3.70995,63.074,0.0002183375,4.01681,63.5071
382,0.000217995,3.71071,63.4074,0.000219484,4.01528,63.8405
384,0.00021914,3.71148,63.7407,0.00022063,4.01405,64.1739
386,0.000220286,3.71209,64.074,0.000221776,4.01253,64.5072
388,0.0002214324,3.71331,64.4073,0.000222922,4.011,64.8406
390,0.000222578,3.71393,64.7407,0.000224068,4.00962,65.174
392,0.000223724,3.71469,65.074,0.000225214,4.00824,65.5073
394,0.00022487,3.71545,65.4073,0.00022636,4.00687,65.8407
396,0.000226016,3.71622,65.7406,0.000227506,4.00549,66.1741
398,0.000227162,3.71698,66.0739,0.000228653,4.00442,66.5074
400,0.000228308,3.71759,66.4073,0.000229799,4.00289,66.8408
402,0.000229454,3.71851,66.7406,0.000230945,4.00152,67.1742
404,0.0002306,3.71943,67.0739,0.000232091,4.00029,67.5076
406,0.000231746,3.72004,67.4072,0.0002332371,3.99877,67.8409
408,0.000232892,3.72111,67.7406,0.000234383,3.99724,68.1743
410,0.000234038,3.72172,68.0739,0.000235529,3.99617,68.5077
412,0.000235184,3.72279,68.4072,0.000236675,3.99479,68.841
414,0.00023633,3.7234,68.7405,0.000237822,3.99341,69.1744
416,0.000237476,3.72417,69.0738,0.000238968,3.99189,69.5078
418,0.000238622,3.72493,69.4072,0.000240114,3.99066,69.8411
420,0.0002397678,3.72585,69.7405,0.00024126,3.98913,70.1745
422,0.000240914,3.72662,70.0738,0.000242406,3.98806,70.5079
424,0.00024206,3.72738,70.4071,0.000243552,3.98653,70.8412
426,0.0002432057,3.72814,70.7405,0.0002446983,3.98531,71.1746
428,0.000244352,3.72891,71.0738,0.000245844,3.98409,71.508
430,0.000245498,3.72967,71.4071,0.000246991,3.98256,71.8413
432,0.000246644,3.73029,71.7404,0.000248137,3.98134,72.1747
434,0.00024779,3.73105,72.0737,0.0002492828,3.97981,72.5081
436,0.000248936,3.73181,72.4071,0.000250429,3.97843,72.8415
438,0.000250081,3.73258,72.7404,0.000251575,3.9769,73.1748
440,0.000251227,3.7335,73.0737,0.000252721,3.97553,73.5082
442,0.0002523734,3.73411,73.407,0.000253867,3.9743,73.8416
444,0.000253519,3.73487,73.7404,0.000255013,3.97277,74.1749
446,0.000254665,3.73564,74.0737,0.00025616,3.9714,74.5083
448,0.000255811,3.7364,74.407,0.000257306,3.97017,74.8417
450,0.000256957,3.73701,74.7403,0.000258452,3.9688,75.175
452,0.000258103,3.73793,75.0737,0.000259598,3.96742,75.5084
454,0.000259249,3.73885,75.407,0.000260744,3.96589,75.8418
456,0.000260395,3.73961,75.7403,0.00026189,3.96452,76.1751
458,0.000261541,3.74022,76.0736,0.000263036,3.96314,76.5085
460,0.000262687,3.74083,76.4069,0.000264182,3.96177,76.8419
462,0.000263833,3.74175,76.7403,0.000265328,3.95993,77.1752
464,0.000264979,3.74252,77.0736,0.000266475,3.95855,77.5086
466,0.000266125,3.74313,77.4069,0.000267621,3.95718,77.842
468,0.000267271,3.74405,77.7402,0.000268767,3.9558,78.1754
470,0.000268417,3.7445,78.0736,0.000269913,3.95412,78.5087
472,0.000269563,3.74542,78.4069,0.0002710591,3.95274,78.8421
474,0.000270709,3.74588,78.7402,0.000272205,3.95106,79.1755
476,0.000271855,3.74664,79.0735,0.000273351,3.94938,79.5088
478,0.000273001,3.74756,79.4068,0.000274497,3.94816,79.8422
480,0.0002741467,3.74817,79.7402,0.000275644,3.94648,80.1756
482,0.000275293,3.74894,80.0735,0.00027679,3.94495,80.5089
484,0.000276439,3.7497,80.4068,0.000277936,3.94327,80.8423
486,0.0002775846,3.75031,80.7401,0.000279082,3.94143,81.1757
488,0.000278731,3.75108,81.0735,0.000280228,3.94021,81.509
490,0.000279877,3.75169,81.4068,0.000281374,3.93853,81.8424
492,0.000281022,3.75261,81.7401,0.00028252,3.93684,82.1758
494,0.000282168,3.75337,82.0734,0.000283666,3.93531,82.5091
496,0.000283314,3.75398,82.4068,0.000284813,3.93379,82.8425
498,0.00028446,3.75475,82.7401,0.000285959,3.9321,83.1759
500,0.000285606,3.75536,83.0734,0.000287105,3.93073,83.5092
502,0.000286752,3.75597,83.4067,0.0002882509,3.92889,83.8426
504,0.000287898,3.75658,83.74,0.000289397,3.92706,84.176
506,0.000289044,3.75735,84.0734,0.000290543,3.92553,84.5094
508,0.00029019,3.75826,84.4067,0.000291689,3.92385,84.8427
510,0.000291336,3.75918,84.74,0.000292835,3.92201,85.1761
512,0.000292482,3.75964,85.0733,0.000293982,3.92048,85.5095
514,0.000293628,3.7604,85.4067,0.000295128,3.91865,85.8428
516,0.000294774,3.76117,85.74,0.000296274,3.91697,86.1762
518,0.00029592,3.76193,86.0733,0.00029742,3.91529,86.5096
520,0.000297066,3.76255,86.4066,0.000298566,3.9136,86.8429
522,0.000298212,3.76331,86.74,0.000299712,3.91192,87.1763
524,0.000299358,3.76407,87.0733,0.000300858,3.90993,87.5097
526,0.0003005039,3.76469,87.4066,0.000302004,3.90856,87.843
528,0.00030165,3.76545,87.7399,0.00030315,3.90672,88.1764
530,0.000302796,3.76606,88.0733,0.000304297,3.90489,88.5098
532,0.0003039418,3.76698,88.4066,0.000305443,3.9029,88.8431
534,0.000305088,3.76759,88.7399,0.000306589,3.90153,89.1765
536,0.000306234,3.76836,89.0732,0.000307735,3.89969,89.5099
538,0.0003073797,3.76897,89.4065,0.000308881,3.89801,89.8432
540,0.000308526,3.76973,89.7399,0.000310027,3.89617,90.1766
542,0.000309672,3.77065,90.0732,0.000311173,3.89449,90.51
544,0.000310818,3.77126,90.4065,0.000312319,3.8925,90.8434
546,0.000311964,3.77187,90.7398,0.000313466,3.89098,91.1767
548,0.00031311,3.77248,91.0732,0.000314612,3.88914,91.5101
550,0.000314255,3.77325,91.4065,0.000315758,3.88746,91.8435
552,0.000315401,3.77386,91.7398,0.000316904,3.88547,92.1768
554,0.000316547,3.77462,92.0731,0.00031805,3.88364,92.5102
556,0.0003176934,3.77539,92.4065,0.000319196,3.88226,92.8436
558,0.000318839,3.77631,92.7398,0.0003203423,3.88027,93.1769
560,0.000319985,3.77707,93.0731,0.000321488,3.87844,93.5103
562,0.0003211313,3.77783,93.4064,0.000322635,3.87676,93.8437
564,0.000322277,3.77845,93.7398,0.000323781,3.87507,94.177
566,0.000323423,3.77921,94.0731,0.000324927,3.87324,94.5104
568,0.0003245692,3.77998,94.4064,0.000326073,3.87141,94.8438
570,0.000325715,3.78089,94.7397,0.000327219,3.86988,95.1771
572,0.000326861,3.7815,95.073,0.000328365,3.86804,95.5105
574,0.0003280071,3.78212,95.4064,0.000329511,3.86651,95.8439
576,0.000329153,3.78303,95.7397,0.000330657,3.86468,96.1772
578,0.000330299,3.78349,96.073,0.0003318035,3.86284,96.5106
580,0.000331445,3.78426,96.4063,0.00033295,3.86131,96.844
582,0.000332591,3.78517,96.7397,0.000334096,3.85948,97.1774
584,0.000333737,3.78579,97.073,0.000335242,3.85795,97.5107
586,0.000334883,3.78655,97.4063,0.000336388,3.85642,97.8441
588,0.000336029,3.78731,97.7396,0.000337534,3.85474,98.1775
590,0.000337175,3.78793,98.073,0.00033868,3.85291,98.5108
592,0.000338321,3.78884,98.4063,0.000339826,3.85138,98.8442
594,0.000339467,3.78961,98.7396,0.000340972,3.84969,99.1776
596,0.000340613,3.79022,99.0729,0.0003421186,3.84801,99.5109
598,0.000341759,3.79129,99.4063,0.000343265,3.84648,99.8443
600,0.000342905,3.7919,99.7396,0.000344411,3.8448,100.178
602,0.000344051,3.79267,100.073,0.000345557,3.84327,100.511
604,0.000345197,3.79343,100.406,0.000346703,3.84174,100.844
606,0.000346343,3.79404,100.74,0.0003478492,3.84022,101.178
608,0.000347489,3.79526,101.073,0.000348995,3.83853,101.511
610,0.000348635,3.79588,101.406,0.000350141,3.83716,101.845
612,0.0003497805,3.79679,101.74,0.000351288,3.83563,102.178
614,0.000350926,3.79756,102.073,0.000352434,3.8341,102.511
616,0.000352072,3.79832,102.406,0.00035358,3.83272,102.845
618,0.0003532184,3.79939,102.739,0.000354726,3.83104,103.178
620,0.000354364,3.79985,103.073,0.000355872,3.82967,103.511
622,0.00035551,3.80077,103.406,0.000357018,3.82783,103.845
624,0.0003566563,3.80153,103.739,0.0003581643,3.82676,104.178
626,0.000357802,3.80245,104.073,0.00035931,3.82523,104.511
628,0.000358948,3.80306,104.406,0.000360457,3.82386,104.845
630,0.0003600942,3.80413,104.739,0.000361603,3.82263,105.178
632,0.00036124,3.80505,105.073,0.000362749,3.82141,105.512
634,0.000362386,3.80597,105.406,0.000363895,3.82003,105.845
636,0.000363532,3.80658,105.739,0.000365041,3.81866,106.178
638,0.000364678,3.80765,106.073,0.000366187,3.81728,106.512
640,0.000365824,3.80826,106.406,0.000367333,3.81606,106.845
642,0.00036697,3.80933,106.739,0.000368479,3.81483,107.178
644,0.000368116,3.81025,107.073,0.000369626,3.81346,107.512
646,0.000369262,3.81132,107.406,0.000370772,3.81224,107.845
648,0.000370408,3.81208,107.739,0.000371918,3.81086,108.179
650,0.000371554,3.81285,108.073,0.000373064,3.80964,108.512
652,0.0003727,3.81407,108.406,0.00037421,3.80841,108.845
654,0.000373846,3.81499,108.739,0.000375356,3.80704,109.179
656,0.000374992,3.81575,109.073,0.000376502,3.80612,109.512
658,0.000376138,3.81652,109.406,0.000377648,3.80474,109.845
660,0.000377284,3.81774,109.739,0.000378794,3.80352,110.179
662,0.00037843,3.81881,110.073,0.000379941,3.8026,110.512
664,0.000379576,3.81973,110.406,0.000381087,3.80138,110.845
666,0.000380722,3.82064,110.739,0.000382233,3.80031,111.179
668,0.000381868,3.82187,111.073,0.000383379,3.79924,111.512
670,0.000383014,3.82263,111.406,0.000384525,3.79832,111.846
672,0.000384159,3.82355,111.739,0.000385671,3.79695,112.179
674,0.000385305,3.82447,112.073,0.000386817,3.79588,112.512
676,0.000386451,3.82584,112.406,0.000387963,3.79496,112.846
678,0.000387597,3.82661,112.739,0.00038911,3.79374,113.179
680,0.000388743,3.82798,113.073,0.000390256,3.79282,113.512
682,0.000389889,3.82875,113.406,0.000391402,3.7916,113.846
684,0.000391035,3.82997,113.739,0.000392548,3.79052,114.179
686,0.000392181,3.83104,114.073,0.000393694,3.78961,114.513
688,0.000393327,3.83226,114.406,0.00039484,3.78884,114.846
690,0.000394473,3.83349,114.739,0.000395986,3.78747,115.179
692,0.000395619,3.83456,115.072,0.000397132,3.78655,115.513
694,0.000396765,3.83548,115.406,0.0003982785,3.78563,115.846
696,0.000397911,3.83685,115.739,0.000399425,3.78456,116.179
698,0.0003990571,3.83823,116.072,0.000400571,3.78364,116.513
700,0.000400203,3.83914,116.406,0.000401717,3.78273,116.846
702,0.000401349,3.84052,116.739,0.000402863,3.78181,117.179
704,0.000402495,3.84159,117.072,0.0004040091,3.78089,117.513
706,0.000403641,3.84281,117.406,0.000405155,3.77982,117.846
708,0.000404787,3.84404,117.739,0.000406301,3.77891,118.18
710,0.0004059329,3.84511,118.072,0.000407447,3.77829,118.513
712,0.000407079,3.84664,118.406,0.000408594,3.77707,118.846
714,0.000408225,3.84771,118.739,0.0004097397,3.77646,119.18
716,0.000409371,3.84908,119.072,0.000410886,3.77508,119.513
718,0.000410517,3.85061,119.406,0.000412032,3.77447,119.846
720,0.000411663,3.85168,119.739,0.000413178,3.7734,120.18
722,0.000412809,3.85306,120.072,0.000414324,3.77248,120.513
724,0.000413955,3.85443,120.406,0.00041547,3.77172,120.847
726,0.0004151006,3.85566,120.739,0.000416616,3.7708,121.18
728,0.000416247,3.85703,121.072,0.000417763,3.77004,121.513
730,0.000417393,3.85841,121.406,0.000418909,3.76912,121.847
732,0.000418538,3.86009,121.739,0.000420055,3.76836,122.18
734,0.000419684,3.86116,122.072,0.000421201,3.76759,122.513
736,0.00042083,3.86284,122.406,0.000422347,3.76667,122.847
738,0.000421976,3.86422,122.739,0.000423493,3.76591,123.18
740,0.000423122,3.8656,123.072,0.000424639,3.76499,123.513
742,0.0004242683,3.86697,123.406,0.000425785,3.76407,123.847
744,0.000425414,3.86835,123.739,0.000426931,3.76331,124.18
746,0.00042656,3.87018,124.072,0.000428078,3.76224,124.514
748,0.0004277062,3.87156,124.406,0.000429224,3.76163,124.847
750,0.000428852,3.87309,124.739,0.00043037,3.76086,125.18
752,0.000429998,3.87446,125.072,0.000431516,3.75995,125.514
754,0.000431144,3.87599,125.405,0.000432662,3.75918,125.847
756,0.00043229,3.87737,125.739,0.000433808,3.75826,126.18
758,0.000433436,3.87905,126.072,0.000434954,3.75735,126.514
760,0.000434582,3.88058,126.405,0.0004361,3.75674,126.847
762,0.000435728,3.88241,126.739,0.000437247,3.75582,127.181
764,0.000436874,3.88379,127.072,0.000438393,3.75505,127.514
766,0.00043802,3.88532,127.405,0.000439539,3.75429,127.847
768,0.000439166,3.88685,127.739,0.000440685,3.75337,128.181
770,0.000440312,3.88853,128.072,0.000441831,3.75276,128.514
772,0.000441458,3.89021,128.405,0.000442977,3.75184,128.847
774,0.000442604,3.89174,128.739,0.000444123,3.75108,129.181
776,0.00044375,3.89342,129.072,0.000445269,3.75031,129.514
778,0.000444896,3.89495,129.405,0.0004464155,3.74955,129.847
780,0.000446042,3.89617,129.739,0.000447562,3.74863,130.181
782,0.000447188,3.89801,130.072,0.000448708,3.74802,130.514
784,0.000448334,3.89969,130.405,0.000449854,3.7471,130.848
786,0.00044948,3.90122,130.739,0.000451,3.74634,131.181
788,0.000450625,3.9029,131.072,0.000452146,3.74573,131.514
790,0.000451771,3.90458,131.405,0.0004532922,3.74481,131.848
792,0.000452917,3.90642,131.739,0.000454438,3.74389,132.181
794,0.000454063,3.90795,132.072,0.000455584,3.74313,132.514
796,0.000455209,3.90963,132.405,0.000456731,3.74252,132.848
798,0.000456355,3.91116,132.739,0.000457877,3.74145,133.181
800,0.000457501,3.91284,133.072,0.000459023,3.74083,133.514
802,0.000458647,3.91467,133.405,0.0004601689,3.73992,133.848
804,0.000459793,3.9162,133.739,0.000461315,3.73915,134.181
806,0.000460939,3.91788,134.072,0.000462461,3.73839,134.515
808,0.000462085,3.91957,134.405,0.000463607,3.73762,134.848
810,0.000463231,3.92125,134.739,0.000464753,3.73671,135.181
812,0.000464377,3.92262,135.072,0.000465899,3.73579,135.515
814,0.000465523,3.92446,135.405,0.0004670456,3.73518,135.848
816,0.000466669,3.92599,135.739,0.000468192,3.73441,136.181
818,0.000467815,3.92767,136.072,0.000469338,3.73365,136.515
820,0.000468961,3.92935,136.405,0.000470484,3.73258,136.848
822,0.0004701069,3.93119,136.738,0.00047163,3.73212,137.182
824,0.000471253,3.93256,137.072,0.000472776,3.7312,137.515
826,0.000472399,3.93424,137.405,0.000473922,3.73044,137.848
828,0.000473545,3.93593,137.738,0.000475068,3.72967,138.182
830,0.000474691,3.93746,138.072,0.000476215,3.72906,138.515
832,0.000475837,3.93914,138.405,0.000477361,3.72814,138.848
834,0.000476983,3.94082,138.738,0.000478507,3.72723,139.182
836,0.000478129,3.94219,139.072,0.000479653,3.72631,139.515
838,0.000479275,3.94388,139.405,0.000480799,3.7257,139.848
840,0.000480421,3.94541,139.738,0.000481945,3.72493,140.182
842,0.000481567,3.94709,140.072,0.0004830912,3.72417,140.515
844,0.000482712,3.94862,140.405,0.000484237,3.72325,140.849
846,0.000483858,3.9503,140.738,0.000485383,3.72249,141.182
848,0.000485004,3.95198,141.072,0.00048653,3.72172,141.515
850,0.00048615,3.95351,141.405,0.000487676,3.72096,141.849
852,0.000487296,3.95473,141.738,0.000488822,3.71989,142.182
854,0.000488442,3.95657,142.072,0.000489968,3.71897,142.515
856,0.000489588,3.95794,142.405,0.000491114,3.71821,142.849
858,0.000490734,3.95947,142.738,0.0004922601,3.71759,143.182
860,0.00049188,3.961,143.072,0.000493406,3.71668,143.515
862,0.000493026,3.96253,143.405,0.000494552,3.71561,143.849
864,0.000494172,3.96436,143.738,0.000495698,3.71515,144.182
866,0.000495318,3.96574,144.072,0.000496845,3.71423,144.516
868,0.000496464,3.96712,144.405,0.000497991,3.71362,144.849
870,0.00049761,3.96865,144.738,0.0004991368,3.71255,145.182
872,0.000498756,3.97017,145.072,0.000500283,3.71194,145.516
874,0.000499902,3.9714,145.405,0.000501429,3.71102,145.849
876,0.000501048,3.97293,145.738,0.000502575,3.7101,146.182
878,0.000502194,3.97461,146.072,0.000503721,3.70919,146.516
880,0.00050334,3.97598,146.405,0.000504867,3.70857,146.849
882,0.000504486,3.97736,146.738,0.000506013,3.70781,147.183
884,0.000505632,3.97874,147.071,0.00050716,3.70705,147.516
886,0.000506778,3.98027,147.405,0.000508306,3.70598,147.849
888,0.000507924,3.98179,147.738,0.000509452,3.70506,148.183
890,0.00050907,3.98317,148.071,0.000510598,3.70429,148.516
892,0.000510216,3.98455,148.405,0.000511744,3.70322,148.849
894,0.000511362,3.98592,148.738,0.00051289,3.70261,149.183
896,0.000512508,3.98745,149.071,0.000514036,3.70154,149.516
898,0.000513654,3.98852,149.405,0.000515182,3.70093,149.849
900,0.0005148,3.99005,149.738,0.000516329,3.70001,150.183
902,0.000515945,3.99143,150.071,0.000517475,3.69909,150.516
904,0.000517091,3.9928,150.405,0.000518621,3.69833,150.85
906,0.000518237,3.99433,150.738,0.000519767,3.69726,151.183
908,0.000519383,3.9954,151.071,0.000520913,3.6965,151.516
910,0.000520529,3.99708,151.405,0.000522059,3.69588,151.85
912,0.000521675,3.99846,151.738,0.000523205,3.69466,152.183
914,0.0005228213,3.99984,152.071,0.000524351,3.6942,152.516
916,0.000523967,4.00106,152.405,0.000525497,3.69298,152.85
918,0.000525113,4.00243,152.738,0.000526644,3.69206,153.183
920,0.000526259,4.00366,153.071,0.0005277897,3.6913,153.516
922,0.000527405,4.00534,153.405,0.000528936,3.69053,153.85
924,0.000528551,4.00641,153.738,0.000530082,3.68962,154.183
926,0.000529697,4.00779,154.071,0.000531228,3.68855,154.517
928,0.000530843,4.00916,154.405,0.000532374,3.68778,154.85
930,0.000531989,4.01039,154.738,0.00053352,3.68702,155.183
932,0.000533135,4.01207,155.071,0.000534666,3.6861,155.517
934,0.000534281,4.01329,155.405,0.000535813,3.68518,155.85
936,0.000535427,4.01467,155.738,0.000536959,3.68426,156.183
938,0.0005365729,4.01574,156.071,0.000538105,3.68335,156.517
940,0.000537719,4.01742,156.405,0.000539251,3.68228,156.85
942,0.000538865,4.01864,156.738,0.000540397,3.68151,157.184
944,0.0005400108,4.02017,157.071,0.000541543,3.68059,157.517
946,0.000541157,4.02124,157.405,0.000542689,3.67952,157.85
948,0.000542303,4.02262,157.738,0.000543835,3.67876,158.184
950,0.000543449,4.02399,158.071,0.000544981,3.67769,158.517
952,0.000544595,4.02537,158.405,0.000546128,3.67693,158.85
954,0.000545741,4.02659,158.738,0.000547274,3.67601,159.184
956,0.000546887,4.02812,159.071,0.0005484198,3.67509,159.517
958,0.000548033,4.02934,159.404,0.000549566,3.67417,159.85
960,0.000549179,4.03087,159.738,0.000550712,3.6731,160.184
962,0.000550325,4.03225,160.071,0.000551858,3.67234,160.517
964,0.00055147,4.03362,160.404,0.000553004,3.67142,160.851
966,0.000552616,4.035,160.738,0.00055415,3.6705,161.184
968,0.000553762,4.03653,161.071,0.000555296,3.66974,161.517
970,0.000554908,4.03775,161.404,0.000556443,3.66867,161.851
972,0.000556054,4.03959,161.738,0.000557589,3.66775,162.184
974,0.0005572,4.04066,162.071,0.000558735,3.66683,162.517
976,0.0005583463,4.04234,162.404,0.000559881,3.66592,162.851
978,0.000559492,4.04372,162.738,0.000561027,3.66485,163.184
980,0.000560638,4.04524,163.071,0.000562173,3.66393,163.518
982,0.000561784,4.04662,163.404,0.000563319,3.66316,163.851
984,0.00056293,4.04815,163.738,0.000564465,3.66194,164.184
986,0.000564076,4.04937,164.071,0.000565612,3.66102,164.518
988,0.000565222,4.0509,164.404,0.000566758,3.65995,164.851
990,0.000566368,4.05258,164.738,0.000567904,3.65919,165.184
992,0.000567514,4.05427,165.071,0.00056905,3.65812,165.518
994,0.00056866,4.05564,165.404,0.000570196,3.65705,165.851
996,0.000569806,4.05732,165.738,0.000571342,3.65628,166.184
998,0.000570952,4.0587,166.071,0.000572488,3.65537,166.518
1000,0.000572098,4.06023,166.404,0.000573634,3.65445,166.851
1002,0.0005732439,4.06191,166.738,0.00057478,3.65338,167.185
1004,0.00057439,4.06329,167.071,0.000575927,3.65246,167.518
1006,0.000575536,4.06497,167.404,0.0005770727,3.65139,167.851
1008,0.000576682,4.0665,167.738,0.000578219,3.65047,168.185
1010,0.000577828,4.06818,168.071,0.000579365,3.6494,168.518
1012,0.000578974,4.06971,168.404,0.000580511,3.64833,168.851
1014,0.00058012,4.07154,168.738,0.000581657,3.64742,169.185
1016,0.000581266,4.07322,169.071,0.000582803,3.64635,169.518
1018,0.000582412,4.07491,169.404,0.000583949,3.64543,169.851
1020,0.000583558,4.07659,169.738,0.000585096,3.64436,170.185
1022,0.000584704,4.07812,170.071,0.000586242,3.64344,170.518
1024,0.00058585,4.0798,170.404,0.000587388,3.64222,170.852
1026,0.000586996,4.08163,170.738,0.000588534,3.6413,171.185
1028,0.0005881415,4.08332,171.071,0.00058968,3.64054,171.518
1030,0.000589287,4.08484,171.404,0.000590826,3.63931,171.852
1032,0.000590433,4.08668,171.737,0.0005919722,3.6384,172.185
1034,0.000591579,4.08836,172.071,0.000593118,3.63748,172.518
1036,0.000592725,4.09004,172.404,0.000594264,3.63626,172.852
1038,0.000593871,4.09218,172.737,0.000595411,3.63503,173.185
1040,0.000595017,4.09386,173.071,0.000596557,3.63412,173.519
1042,0.000596163,4.09585,173.404,0.000597703,3.6332,173.852
1044,0.000597309,4.09753,173.737,0.000598849,3.63213,174.185
1046,0.000598455,4.09922,174.071,0.000599995,3.6309,174.519
1048,0.000599601,4.1012,174.404,0.000601141,3.62983,174.852
1050,0.0006007471,4.10273,174.737,0.000602287,3.62907,175.185
1052,0.000601893,4.10457,175.071,0.000603433,3.62769,175.519
1054,0.000603039,4.1064,175.404,0.000604579,3.62693,175.852
1056,0.000604185,4.10808,175.737,0.000605726,3.62571,176.185
1058,0.000605331,4.11007,176.071,0.000606872,3.62479,176.519
1060,0.000606477,4.11191,176.404,0.0006080178,3.62357,176.852
1062,0.000607623,4.11359,176.737,0.000609164,3.6225,177.186
1064,0.000608769,4.11542,177.071,0.00061031,3.62127,177.519
1066,0.0006099148,4.1171,177.404,0.000611456,3.62005,177.852
1068,0.000611061,4.11909,177.737,0.000612602,3.61913,178.186
1070,0.000612207,4.12093,178.071,0.000613748,3.61806,178.519
1072,0.0006133527,4.12291,178.404,0.000614894,3.61699,178.852
1074,0.000614499,4.12429,178.737,0.0006160406,3.61577,179.186
1076,0.000615645,4.12613,179.071,0.000617187,3.6147,179.519
1078,0.0006167906,4.12796,179.404,0.000618333,3.61363,179.852
1080,0.000617937,4.12995,179.737,0.000619479,3.61256,180.186
1082,0.000619083,4.13163,180.071,0.000620625,3.61118,180.519
1084,0.000620229,4.13362,180.404,0.000621771,3.61026,180.853
1086,0.000621374,4.13515,180.737,0.000622917,3.60904,181.186
1088,0.00062252,4.13698,181.071,0.0006240634,3.60751,181.519
1090,0.000623666,4.13882,181.404,0.00062521,3.60659,181.853
1092,0.000624812,4.14065,181.737,0.000626356,3.60568,182.186
1094,0.000625958,4.14203,182.07,0.000627502,3.60415,182.519
1096,0.000627104,4.14371,182.404,0.000628648,3.60308,182.853
1098,0.0006282503,4.14554,182.737,0.000629794,3.60185,183.186
1100,0.000629396,4.14707,183.07,0.00063094,3.60063,183.52
1102,0.000630542,4.14891,183.404,0.000632086,3.59941,183.853
1104,0.000631688,4.15059,183.737,0.0006332323,3.59819,184.186
1106,0.0006328342,4.15196,184.07,0.000634378,3.59712,184.52
1108,0.00063398,4.15365,184.404,0.000635525,3.59589,184.853
1110,0.000635126,4.15533,184.737,0.000636671,3.59436,185.186
1112,0.000636272,4.15686,185.07,0.000637817,3.59345,185.52
1114,0.000637418,4.15854,185.404,0.000638963,3.59192,185.853
1116,0.000638564,4.16007,185.737,0.000640109,3.59069,186.186
1118,0.00063971,4.16144,186.07,0.0006412551,3.58932,186.52
1120,0.000640856,4.16297,186.404,0.000642401,3.58794,186.853
1122,0.000642002,4.16435,186.737,0.000643547,3.58687,187.187
1124,0.000643148,4.16603,187.07,0.000644693,3.58565,187.52
1126,0.0006442939,4.16741,187.404,0.00064584,3.58427,187.853
1128,0.00064544,4.16878,187.737,0.000646986,3.58305,188.187
1130,0.000646586,4.17016,188.07,0.000648132,3.58152,188.52
1132,0.0006477318,4.17123,188.404,0.000649278,3.5803,188.853
1134,0.000648878,4.17276,188.737,0.000650424,3.57892,189.187
1136,0.000650024,4.17413,189.07,0.00065157,3.5777,189.52
1138,0.00065117,4.17551,189.404,0.000652716,3.57617,189.853
1140,0.000652316,4.17673,189.737,0.000653862,3.57495,190.187
1142,0.000653462,4.17826,190.07,0.000655008,3.57326,190.52
1144,0.000654608,4.17903,190.404,0.000656155,3.57189,190.854
1146,0.000655754,4.18025,190.737,0.000657301,3.57051,191.187
1148,0.0006569,4.18132,191.07,0.0006584468,3.56914,191.52
1150,0.000658046,4.18254,191.404,0.000659593,3.56745,191.854
1152,0.000659191,4.18377,191.737,0.000660739,3.56592,192.187
1154,0.000660337,4.18484,192.07,0.000661885,3.56455,192.52
1156,0.000661483,4.18575,192.404,0.000663031,3.56317,192.854
1158,0.000662629,4.18682,192.737,0.000664177,3.5618,193.187
1160,0.000663775,4.18805,193.07,0.000665323,3.56012,193.521
1162,0.000664921,4.18896,193.404,0.0006664696,3.55874,193.854
1164,0.000666067,4.18973,193.737,0.000667616,3.55706,194.187
1166,0.000667213,4.1908,194.07,0.000668762,3.55553,194.521
1168,0.000668359,4.19156,194.403,0.000669908,3.55369,194.854
1170,0.000669505,4.19248,194.737,0.000671054,3.55201,195.187
1172,0.000670651,4.19325,195.07,0.0006722,3.55064,195.521
1174,0.000671797,4.19386,195.403,0.000673346,3.54895,195.854
1176,0.000672943,4.19477,195.737,0.000674492,3.54712,196.187
1178,0.000674089,4.19569,196.07,0.000675639,3.54528,196.521
1180,0.000675235,4.19615,196.403,0.000676785,3.5436,196.854
1182,0.000676381,4.19691,196.737,0.000677931,3.54177,197.188
1184,0.000677527,4.19768,197.07,0.000679077,3.53978,197.521
1186,0.000678673,4.1986,197.403,0.000680223,3.5381,197.854
1188,0.000679819,4.1989,197.737,0.000681369,3.53581,198.188
1190,0.000680965,4.19951,198.07,0.000682515,3.53382,198.521
1192,0.000682111,4.20013,198.403,0.0006836613,3.53168,198.854
1194,0.000683257,4.20089,198.737,0.000684807,3.52938,199.188
1196,0.000684403,4.2015,199.07,0.000685954,3.52755,199.521
1198,0.000685549,4.20227,199.403,0.0006871,3.52526,199.854
1200,0.000686695,4.20303,199.737,0.000688246,3.52296,200.188
1202,0.000687841,4.20379,200.07,0.000689392,3.52036,200.521
1204,0.000688987,4.2041,200.403,0.000690538,3.51792,200.855
1206,0.000690133,4.20487,200.737,0.000691684,3.51501,201.188
1208,0.000691278,4.20517,201.07,0.0006928302,3.51211,201.521
1210,0.000692424,4.20578,201.403,0.000693976,3.5089,201.855
1212,0.00069357,4.20639,201.737,0.000695122,3.50599,202.188
1214,0.000694716,4.20716,202.07,0.000696269,3.50263,202.521
1216,0.000695862,4.20777,202.403,0.000697415,3.4988,202.855
1218,0.000697008,4.20838,202.737,0.000698561,3.49468,203.188
1220,0.000698154,4.20884,203.07,0.000699707,3.49055,203.521
1222,0.0006993002,4.2093,203.403,0.000700853,3.48581,203.855
1224,0.000700446,4.20991,203.737,0.0007019991,3.48061,204.188
1226,0.000701592,4.21037,204.07,0.000703145,3.47465,204.522
1228,0.000702738,4.21113,204.403,0.000704291,3.46853,204.855
1230,0.000703884,4.21159,204.736,0.000705437,3.46119,205.188
1232,0.00070503,4.21236,205.07,0.000706584,3.45355,205.522
1234,0.000706176,4.21297,205.403,0.00070773,3.44483,205.855
1236,0.000707322,4.21358,205.736,0.000708876,3.43474,206.188
1238,0.000708468,4.21419,206.07,0.000710022,3.42358,206.522
1240,0.000709614,4.2148,206.403,0.000711168,3.4115,206.855
1242,0.00071076,4.21541,206.736,0.0007123141,3.39759,207.189
1244,0.000711906,4.21603,207.07,0.00071346,3.38215,207.522
1246,0.000713052,4.21679,207.403,0.000714606,3.36502,207.855
1248,0.000714198,4.21756,207.736,0.000715752,3.34591,208.189
1250,0.000715344,4.21817,208.07,0.000716899,3.32466,208.522
1252,0.00071649,4.21863,208.403,0.000718045,3.30157,208.855
1254,0.000717636,4.21939,208.736,0.000719191,3.27558,209.189
1256,0.000718782,4.22031,209.07,0.000720337,3.24714,209.522
1258,0.000719927,4.22092,209.403,0.000721483,3.21595,209.855
1260,0.000721073,4.22168,209.736,0.000722629,3.18201,210.189
1262,0.000722219,4.2226,210.07,0.0007237752,3.14516,210.522
1264,0.000723365,4.22321,210.403,0.000724921,3.10556,210.856
1266,0.000724511,4.22398,210.736,0.000726067,3.06321,211.189
1268,0.000725657,4.22489,211.07,0.000727214,3.01734,211.522
1270,0.000726803,4.22551,211.403,,,
1272,0.000727949,4.22627,211.736,,,
1274,0.0007290952,4.22719,212.07,,,
1276,0.000730241,4.22795,212.403,,,
1278,0.000731387,4.22902,212.736,,,
1280,0.000732533,4.22979,213.07,,,
1282,0.000733679,4.23055,213.403,,,
1284,0.000734825,4.23147,213.736,,,
1286,0.000735971,4.23254,214.07,,,
1288,0.000737117,4.23346,214.403,,,
1290,0.000738263,4.23468,214.736,,,
1292,0.000739409,4.23544,215.069,,,
1294,0.000740555,4.23651,215.403,,,
1296,0.000741701,4.23789,215.736,,,
1298,0.000742847,4.23896,216.069,,,
1300,0.000743993,4.24018,216.403,,,
1302,0.000745139,4.24125,216.736,,,
1304,0.000746285,4.24248,217.069,,,
1306,0.000747431,4.24355,217.403,,,
1308,0.0007485766,4.24492,217.736,,,
1310,0.000749723,4.24615,218.069,,,
1312,0.000750869,4.24752,218.403,,,
1314,0.000752014,4.24905,218.736,,,
1316,0.00075316,4.25027,219.069,,,
1318,0.000754306,4.2515,219.403,,,
1320,0.000755452,4.25303,219.736,,,
1322,0.000756598,4.25471,220.069,,,
1324,0.0007577443,4.25608,220.403,,,
1326,0.00075889,4.25792,220.736,,,
1328,0.000760036,4.25945,221.069,,,
1330,0.000761182,4.26113,221.403,,,
1332,0.000762328,4.26281,221.736,,,
1334,0.000763474,4.26465,222.069,,,
1336,0.00076462,4.26663,222.403,,,
1338,0.000765766,4.26816,222.736,,,
1340,0.000766912,4.27,223.069,,,
1342,0.000768058,4.27214,223.403,,,
1344,0.000769204,4.27413,223.736,,,
1346,0.00077035,4.27611,224.069,,,
1348,0.000771496,4.27841,224.403,,,
1350,0.000772642,4.28039,224.736,,,
1352,0.000773788,4.28238,225.069,,,
1354,0.000774934,4.28468,225.402,,,
1356,0.0007760797,4.28697,225.736,,,
1358,0.000777226,4.28941,226.069,,,
1360,0.000778372,4.29171,226.402,,,
1362,0.000779518,4.29431,226.736,,,
1364,0.000780664,4.29691,227.069,,,
1366,0.00078181,4.29951,227.402,,,
1368,0.000782936,4.30073,227.73,,,
1370,0.000783735,4.30088,227.962,,,
1372,0.000784325,4.30088,228.134,,,
1373,0.000784382,4.30058,228.151,,,